Frequency (Hz)	Level (dB)
86.132813	-40.907543
172.265625	-39.520897
258.398438	-46.405880
344.531250	-53.549351
430.664063	-53.959305
516.796875	-58.998005
602.929688	-68.487015
689.062500	-59.494839
775.195313	-56.354248
861.328125	-66.310555
947.460938	-69.886513
1033.593750	-78.011337
1119.726563	-68.423981
1205.859375	-65.669914
1291.992188	-66.590080
1378.125000	-70.079895
1464.257813	-61.478642
1550.390625	-62.464622
1636.523438	-63.419521
1722.656250	-65.741280
1808.789063	-62.307774
1894.921875	-53.738678
1981.054688	-52.535244
2067.187500	-60.928242
2153.320313	-54.678181
2239.453125	-49.918056
2325.585938	-55.979214
2411.718750	-46.901180
2497.851563	-46.377972
2583.984375	-50.916283
2670.117188	-43.837597
2756.250000	-52.517391
2842.382813	-37.344353
2928.515625	-34.750351
3014.648438	-52.718342
3100.781250	-37.568077
3186.914063	-38.620499
3273.046875	-30.127985
3359.179688	-36.147137
3445.312500	-45.745663
3531.445313	-39.750755
3617.578125	-39.519043
3703.710938	-39.768845
3789.843750	-43.745014
3875.976563	-38.043503
3962.109375	-38.332996
4048.242188	-44.391499
4134.375000	-49.988586
4220.507813	-51.278870
4306.640625	-44.566189
4392.773438	-51.688644
4478.906250	-47.981586
4565.039063	-45.238831
4651.171875	-44.340019
4737.304688	-44.371914
4823.437500	-43.407501
4909.570313	-46.640766
4995.703125	-56.537460
5081.835938	-48.283352
5167.968750	-42.340317
5254.101563	-36.460308
5340.234375	-35.693310
5426.367188	-38.033737
5512.500000	-38.766994
5598.632813	-43.280170
5684.765625	-37.030849
5770.898438	-40.968128
5857.031250	-51.057087
5943.164063	-52.918613
6029.296875	-48.601303
6115.429688	-45.596474
6201.562500	-46.086994
6287.695313	-56.092472
6373.828125	-49.737614
6459.960938	-49.938511
6546.093750	-51.737278
6632.226563	-59.133045
6718.359375	-64.776772
6804.492188	-64.077881
6890.625000	-55.795570
6976.757813	-56.077461
7062.890625	-57.051556
7149.023438	-50.618530
7235.156250	-55.602741
7321.289063	-59.618244
7407.421875	-68.109001
7493.554688	-58.861881
7579.687500	-53.675804
7665.820313	-55.148655
7751.953125	-54.757252
7838.085938	-47.842922
7924.218750	-53.663792
8010.351563	-53.855556
8096.484375	-54.487438
8182.617188	-49.238621
8268.750000	-46.085690
8354.882813	-54.606018
8441.015625	-57.040421
8527.148438	-56.108467
8613.281250	-49.629379
8699.414063	-57.860035
8785.546875	-56.977085
8871.679688	-53.321384
8957.812500	-55.123035
9043.945313	-52.760937
9130.078125	-50.856960
9216.210938	-50.747242
9302.343750	-60.370331
9388.476563	-63.973953
9474.609375	-67.514214
9560.742188	-56.242786
9646.875000	-50.400963
9733.007813	-47.013866
9819.140625	-47.101379
9905.273438	-46.586758
9991.406250	-50.198917
10077.539063	-89.935799
10163.671875	-56.497746
10249.804688	-70.356705
10335.937500	-63.188438
10422.070313	-50.756588
10508.203125	-52.428097
10594.335938	-74.314636
10680.468750	-53.710278
10766.601563	-54.611958
10852.734375	-61.582500
10938.867188	-60.251732
11025.000000	-64.744011
11111.132813	-60.005520
11197.265625	-62.304478
11283.398438	-57.233112
11369.531250	-56.883358
11455.664063	-58.030273
11541.796875	-54.567123
11627.929688	-61.225632
11714.062500	-59.804710
11800.195313	-56.111015
11886.328125	-58.267223
11972.460938	-56.877266
12058.593750	-58.892021
12144.726563	-58.541782
12230.859375	-58.649609
12316.992188	-60.471439
12403.125000	-64.324898
12489.257813	-58.832378
12575.390625	-63.314213
12661.523438	-63.445438
12747.656250	-65.987488
12833.789063	-86.019920
12919.921875	-67.456665
13006.054688	-65.507339
13092.187500	-62.734573
13178.320313	-71.419487
13264.453125	-68.361885
13350.585938	-62.391617
13436.718750	-63.796890
13522.851563	-63.067604
13608.984375	-63.341488
13695.117188	-65.865295
13781.250000	-69.561485
13867.382813	-76.633698
13953.515625	-67.150780
14039.648438	-73.845940
14125.781250	-81.241226
14211.914063	-92.477432
14298.046875	-72.837128
14384.179688	-77.009140
14470.312500	-78.324982
14556.445313	-81.286964
14642.578125	-88.605934
14728.710938	-76.836243
14814.843750	-85.866821
14900.976563	-84.937843
14987.109375	-76.117668
15073.242188	-77.726471
15159.375000	-87.739594
15245.507813	-83.212631
15331.640625	-75.873222
15417.773438	-76.936760
15503.906250	-85.386665
15590.039063	-89.568756
15676.171875	-88.015472
15762.304688	-88.429626
15848.437500	-86.018517
15934.570313	-83.952667
16020.703125	-87.251709
16106.835938	-86.929855
16192.968750	-83.889404
16279.101563	-84.824471
16365.234375	-80.434059
16451.367188	-81.674950
16537.500000	-92.113838
16623.632813	-84.572342
16709.765625	-83.691986
16795.898438	-87.240166
16882.031250	-91.454643
16968.164063	-87.358704
17054.296875	-86.200638
17140.429688	-91.491203
17226.562500	-95.259590
17312.695313	-91.142937
17398.828125	-84.705940
17484.960938	-86.203156
17571.093750	-82.217819
17657.226563	-83.144684
17743.359375	-89.845802
17829.492188	-91.124680
17915.625000	-87.902237
18001.757813	-85.545219
18087.890625	-85.591431
18174.023438	-93.819481
18260.156250	-85.099838
18346.289063	-83.082100
18432.421875	-101.801369
18518.554688	-77.123352
18604.687500	-80.984985
18690.820313	-82.164505
18776.953125	-93.318047
18863.085938	-81.330963
18949.218750	-76.352791
19035.351563	-79.147926
19121.484375	-87.613541
19207.617188	-85.195076
19293.750000	-94.709564
19379.882813	-84.152420
19466.015625	-79.959213
19552.148438	-81.942253
19638.281250	-92.211594
19724.414063	-78.942017
19810.546875	-76.519371
19896.679688	-77.222565
19982.812500	-76.334236
20068.945313	-86.573204
20155.078125	-73.016388
20241.210938	-75.876503
20327.343750	-70.052544
20413.476563	-72.594048
20499.609375	-79.974396
20585.742188	-95.778412
20671.875000	-84.801262
20758.007813	-83.570168
20844.140625	-76.966309
20930.273438	-80.197861
21016.406250	-76.633972
21102.539063	-75.374557
21188.671875	-75.035149
21274.804688	-74.784782
21360.937500	-85.330009
21447.070313	-79.574715
21533.203125	-74.002342
21619.335938	-77.569344
21705.468750	-73.313354
21791.601563	-77.711624
21877.734375	-77.589790
21963.867188	-78.902740
